onset	duration	trial_type	stimulus	memory_condition	encode_phase	response	low_confidence_accuracy	high_confidence_accuracy	response_time
4.05	3.0	CS-	tools/camera.jpg	Old	extinction	DN	M	M	1.2109999999999999
11.184000000000001	3.0	CS+	animals/caterpillarhawkmoth.jpg	Old	extinction	MO	H	M	1.469
18.334	3.0	CS+	animals/marlin.jpg	New	foil	DN	CR	CR	1.382
25.467	3.0	CS+	animals/caterpillarpeacockmoth.jpg	Old	baseline	DO	H	H	1.024
32.617	3.0	CS-	tools/laptop.jpg	New	foil	DN	CR	CR	0.8590000000000001
39.766999999999996	3.0	CS-	tools/plow.jpg	Old	baseline	MN	M	M	1.6059999999999999
46.917	3.0	CS+	animals/firebug.jpg	Old	acquisition	DO	H	H	0.976
54.067	3.0	CS+	animals/rooster.jpg	New	foil	DN	CR	CR	1.36
61.217	3.0	CS+	animals/mole.jpg	Old	baseline	MO	H	M	1.291
68.367	3.0	CS+	animals/slug.jpg	New	foil	DN	CR	CR	1.724
75.517	3.0	CS-	tools/carabiner.jpg	New	foil	DN	CR	CR	1.4040000000000001
82.667	3.0	CS-	tools/solderingtorch.jpg	Old	extinction	MN	M	M	1.4669999999999999
89.81700000000001	3.0	CS+	animals/caracal.jpg	New	foil	DN	CR	CR	1.22
96.96700000000001	3.0	CS+	animals/hyena.jpg	Old	extinction	MO	H	M	1.8019999999999998
104.117	3.0	CS-	tools/faxmachine.jpg	Old	baseline	DN	M	M	0.8240000000000001
111.26700000000001	3.0	CS-	tools/anvil.jpg	New	foil	MO	FA	CR	1.565
118.4	3.0	CS-	tools/levelmount.jpg	Old	acquisition	DN	M	M	1.162
125.53399999999999	3.0	CS-	tools/blackboard.jpg	Old	acquisition	MO	H	M	1.5490000000000002
132.667	3.0	CS+	animals/mahimahi.jpg	Old	acquisition	DN	M	M	1.304
139.817	3.0	CS-	tools/duster.jpg	New	foil	DN	CR	CR	0.872
146.967	3.0	CS-	tools/flashlight.jpg	New	foil	DO	FA	FA	1.219
154.11700000000002	3.0	CS-	tools/microwave.jpg	Old	extinction	DN	M	M	0.8740000000000001
161.267	3.0	CS+	animals/stinkbug.jpg	New	foil	DO	FA	FA	1.604
168.417	3.0	CS+	animals/cricket.jpg	Old	extinction	DO	H	H	0.856
175.567	3.0	CS-	tools/hedgeshears.jpg	New	foil	DN	CR	CR	1.1640000000000001
182.717	3.0	CS-	tools/ropeandpulley.jpg	Old	baseline	MO	H	M	1.796
189.86700000000002	3.0	CS-	tools/sparkplug.jpg	Old	acquisition	MO	H	M	1.599
197.017	3.0	CS+	animals/earthworm.jpg	New	foil	DN	CR	CR	1.055
204.167	3.0	CS+	animals/boar.jpg	Old	baseline	DO	H	H	1.694
211.317	3.0	CS-	tools/workbench.jpg	Old	extinction	DN	M	M	1.0
218.467	3.0	CS+	animals/herring.jpg	Old	acquisition	MO	H	M	1.6019999999999999
225.61700000000002	3.0	CS+	animals/tragopan.jpg	New	foil	DN	CR	CR	1.459
232.767	3.0	CS+	animals/goldfish.jpg	Old	extinction	DO	H	H	1.466
239.9	3.0	CS+	animals/dramaderry.jpg	Old	acquisition	MO	H	M	1.466
247.03400000000002	3.0	CS-	tools/fan.jpg	Old	acquisition	DN	M	M	0.899
254.167	3.0	CS-	tools/hairdryer.jpg	Old	baseline	MO	H	M	1.474
261.317	3.0	CS+	animals/dove.jpg	New	foil	MO	FA	CR	1.4869999999999999
268.467	3.0	CS-	tools/telephone.jpg	New	foil	MO	FA	CR	2.123
275.617	3.0	CS-	tools/scratchawl.jpg	New	foil	MN	CR	CR	1.6230000000000002
282.767	3.0	CS+	animals/gerbil.jpg	Old	baseline	DO	H	H	0.938
289.91700000000003	3.0	CS-	tools/edger.jpg	Old	extinction	DN	M	M	1.237
298.05	3.0	CS-	tools/stapler.jpg	New	foil	DN	CR	CR	0.8740000000000001
306.2	3.0	CS-	tools/rollingpin.jpg	Old	baseline	DO	H	H	1.081
314.334	3.0	CS-	tools/sawblade.jpg	New	foil	DN	CR	CR	0.865
322.467	3.0	CS-	tools/gardenhose.jpg	Old	baseline	DN	M	M	1.345
330.61699999999996	3.0	CS+	animals/camel.jpg	Old	acquisition	MO	H	M	1.4969999999999999
338.767	3.0	CS+	animals/marmot.jpg	Old	extinction	DO	H	H	1.14
346.9	3.0	CS-	tools/pick.jpg	New	foil	MO	FA	CR	1.3630000000000002
355.034	3.0	CS+	animals/flamingo.jpg	Old	extinction	DO	H	H	1.2109999999999999
363.167	3.0	CS-	tools/razorblade.jpg	New	foil	DN	CR	CR	1.115
371.31699999999995	3.0	CS+	animals/crab.jpg	New	foil	MN	CR	CR	1.636
379.467	3.0	CS-	tools/thermometer.jpg	Old	acquisition	DN	M	M	1.297
387.61699999999996	3.0	CS+	animals/malaysianjunglenymph.jpg	New	foil	DN	CR	CR	1.224
395.767	3.0	CS-	tools/jumpercables.jpg	Old	extinction	DN	M	M	1.07
403.917	3.0	CS+	animals/owl.jpg	New	foil	DO	FA	FA	1.129
412.034	3.0	CS+	animals/mink.jpg	Old	acquisition	DO	H	H	1.382
420.167	3.0	CS+	animals/wasp.jpg	New	foil	MN	CR	CR	1.324
428.3	3.0	CS-	tools/measuringcups.jpg	Old	acquisition	MO	H	M	1.475
436.45	3.0	CS+	animals/porcupine.jpg	Old	baseline	DO	H	H	0.87
444.6	3.0	CS+	animals/pelican.jpg	Old	baseline	DO	H	H	1.225
452.75	3.0	CS+	animals/giraffe.jpg	Old	baseline	MN	M	M	1.579
460.884	3.0	CS+	animals/pigeon.jpg	Old	baseline	DO	H	H	1.751
469.017	3.0	CS+	animals/mouse.jpg	Old	acquisition	DO	H	H	0.932
477.15	3.0	CS+	animals/sheep.jpg	Old	acquisition	MO	H	M	1.537
485.284	3.0	CS+	animals/shrimp.jpg	Old	extinction	DN	M	M	1.36
493.417	3.0	CS+	animals/horse.jpg	Old	extinction	MN	M	M	1.98
501.534	3.0	CS-	tools/scissors.jpg	Old	baseline	DO	H	H	1.011
509.667	3.0	CS-	tools/ladder.jpg	Old	baseline	DN	M	M	1.749
517.784	3.0	CS-	tools/broom.jpg	Old	acquisition	MO	H	M	1.494
525.9169999999999	3.0	CS-	tools/ruler.jpg	Old	acquisition	MN	M	M	1.692
534.067	3.0	CS-	tools/monkeywrench.jpg	Old	extinction	MO	H	M	2.088
542.217	3.0	CS-	tools/measuringtape.jpg	Old	extinction	MO	H	M	1.6219999999999999
550.367	3.0	CS+	animals/armadillo.jpg	New	foil	MN	CR	CR	1.9169999999999998
558.5	3.0	CS+	animals/orangutan.jpg	New	foil	DN	CR	CR	0.867
566.65	3.0	CS+	animals/beardeddragon.jpg	New	foil	DN	CR	CR	0.91
574.784	3.0	CS+	animals/leafinsect.jpg	New	foil	DN	CR	CR	1.145
582.9169999999999	3.0	CS-	tools/pizzacutter.jpg	New	foil	DN	CR	CR	1.232
591.034	3.0	CS-	tools/snowbrush.jpg	New	foil	DN	CR	CR	1.011
599.15	3.0	CS-	tools/clamp.jpg	New	foil	DO	FA	FA	1.436
607.284	3.0	CS-	tools/battery.jpg	New	foil	DN	CR	CR	1.072
