onset	duration	trial_type	stimulus	memory_condition	encode_phase	response	low_confidence_accuracy	high_confidence_accuracy	response_time
4.05	3.0	CS+	animals/caterpillarhawkmoth.jpg	Old	baseline	DO	H	H	1.604
11.2	3.0	CS-	tools/level.jpg	New	foil	MN	CR	CR	1.921
18.35	3.0	CS-	tools/keys.jpg	New	foil	MN	CR	CR	1.993
25.5	3.0	CS+	animals/firebug.jpg	Old	extinction	MO	H	M	1.8940000000000001
32.65	3.0	CS-	tools/levelmount.jpg	Old	extinction	MN	M	M	1.695
40.8	3.0	CS+	animals/hyena.jpg	Old	baseline	DO	H	H	1.237
47.95	3.0	CS-	tools/blackboard.jpg	Old	extinction	MN	M	M	1.7080000000000002
55.1	3.0	CS+	animals/stickinsect.jpg	New	foil	DO	FA	FA	2.149
62.233000000000004	3.0	CS-	tools/dremel.jpg	New	foil	MN	CR	CR	1.785
69.35	3.0	CS-	tools/caulkinggun.jpg	New	foil	MN	CR	CR	1.5019999999999998
77.5	3.0	CS-	tools/camera.jpg	Old	baseline	DO	H	H	1.3880000000000001
84.633	3.0	CS+	animals/caterpillarpeacockmoth.jpg	Old	acquisition	DO	H	H	1.056
91.78299999999999	3.0	CS-	tools/plow.jpg	Old	acquisition	MN	M	M	1.6480000000000001
99.917	3.0	CS-	tools/solderingtorch.jpg	Old	baseline	MO	H	M	2.097
107.03299999999999	3.0	CS+	animals/tortoise.jpg	New	foil	DN	CR	CR	2.044
115.167	3.0	CS+	animals/hermitcrab.jpg	New	foil	MN	CR	CR	2.428
122.3	3.0	CS-	tools/faxmachine.jpg	Old	acquisition	MN	M	M	1.52
130.433	3.0	CS+	animals/mahimahi.jpg	Old	extinction	DO	H	H	1.402
138.55	3.0	CS+	animals/waterdragon.jpg	New	foil	MN	CR	CR	1.601
145.667	3.0	CS+	animals/mole.jpg	Old	acquisition	MO	H	M	1.58
153.783	3.0	CS+	animals/cricket.jpg	Old	baseline	DO	H	H	1.217
161.9	3.0	CS+	animals/highlandcow.jpg	New	foil	MN	CR	CR	1.568
170.017	3.0	CS+	animals/monkey.jpg	New	foil	MO	FA	CR	1.308
177.15	3.0	CS-	tools/sparkplug.jpg	Old	extinction	MO	H	M	2.1719999999999997
184.283	3.0	CS+	animals/balloonfish.jpg	New	foil	MN	CR	CR	1.534
192.417	3.0	CS+	animals/boar.jpg	Old	acquisition	DO	H	H	1.371
199.55	3.0	CS-	tools/microscope.jpg	New	foil	MN	CR	CR	1.3319999999999999
207.683	3.0	CS-	tools/bolt.jpg	New	foil	MN	CR	CR	1.2109999999999999
214.817	3.0	CS+	animals/gerbil.jpg	Old	acquisition	DO	H	H	0.958
222.967	3.0	CS-	tools/fan.jpg	Old	extinction	MO	H	M	1.492
230.11700000000002	3.0	CS-	tools/microwave.jpg	Old	baseline	DO	H	H	1.304
238.267	3.0	CS-	tools/ropeandpulley.jpg	Old	acquisition	MO	H	M	1.3659999999999999
246.38299999999998	3.0	CS-	tools/lantern.jpg	New	foil	MN	CR	CR	1.459
254.533	3.0	CS-	tools/electricdrill.jpg	New	foil	MO	FA	CR	1.9969999999999999
261.66700000000003	3.0	CS+	animals/seaslug.jpg	New	foil	MN	CR	CR	1.8159999999999998
268.783	3.0	CS+	animals/herring.jpg	Old	extinction	DO	H	H	1.155
276.91700000000003	3.0	CS+	animals/dramaderry.jpg	Old	extinction	MO	H	M	1.4269999999999998
284.034	3.0	CS-	tools/workbench.jpg	Old	baseline	MN	M	M	1.965
292.15	3.0	CS+	animals/goldfish.jpg	Old	baseline	MO	H	M	1.369
300.284	3.0	CS-	tools/hairdryer.jpg	Old	acquisition	MN	M	M	1.367
308.41700000000003	3.0	CS+	animals/octopus.jpg	New	foil	MO	FA	CR	1.851
316.55	3.0	CS-	tools/edger.jpg	Old	baseline	MN	M	M	2.03
324.66700000000003	3.0	CS+	animals/bullfrog.jpg	New	foil	MO	FA	CR	1.4340000000000002
332.8	3.0	CS-	tools/whistle.jpg	New	foil	MN	CR	CR	1.2690000000000001
339.917	3.0	CS+	animals/crane.jpg	New	foil	MN	CR	CR	2.133
348.06699999999995	3.0	CS-	tools/grapplinghook.jpg	New	foil	MN	CR	CR	1.595
356.217	3.0	CS+	animals/porcupine.jpg	Old	acquisition	DO	H	H	1.124
363.36699999999996	3.0	CS+	animals/marmot.jpg	Old	baseline	DO	H	H	1.033
370.517	3.0	CS+	animals/camel.jpg	Old	extinction	MO	H	M	1.391
377.65	3.0	CS-	tools/rollingpin.jpg	Old	acquisition	MN	M	M	1.746
385.784	3.0	CS-	tools/engine.jpg	New	foil	DN	CR	CR	2.1630000000000003
393.917	3.0	CS+	animals/pelican.jpg	Old	acquisition	MO	H	M	1.376
402.05	3.0	CS-	tools/thermometer.jpg	Old	extinction	DO	H	H	1.4280000000000002
410.184	3.0	CS-	tools/measuringcups.jpg	Old	extinction	DN	M	M	2.005
418.31699999999995	3.0	CS-	tools/whisk.jpg	New	foil	MN	CR	CR	1.493
425.45	3.0	CS-	tools/gardenhose.jpg	Old	acquisition	MN	M	M	1.595
432.56699999999995	3.0	CS+	animals/mink.jpg	Old	extinction	MN	M	M	1.495
439.7	3.0	CS-	tools/jumpercables.jpg	Old	baseline	DO	H	H	1.246
446.834	3.0	CS+	animals/koala.jpg	New	foil	MO	FA	CR	2.461
454.95	3.0	CS+	animals/flamingo.jpg	Old	baseline	DO	H	H	0.8190000000000001
462.06699999999995	3.0	CS+	animals/giraffe.jpg	Old	acquisition	DO	H	H	1.32
470.2	3.0	CS+	animals/pigeon.jpg	Old	acquisition	MO	H	M	1.8530000000000002
477.334	3.0	CS+	animals/mouse.jpg	Old	extinction	MO	H	M	1.8459999999999999
484.45	3.0	CS+	animals/sheep.jpg	Old	extinction	MN	M	M	2.483
491.56699999999995	3.0	CS+	animals/shrimp.jpg	Old	baseline	DO	H	H	0.97
498.717	3.0	CS+	animals/horse.jpg	Old	baseline	MN	M	M	1.581
506.834	3.0	CS-	tools/scissors.jpg	Old	acquisition	DO	H	H	1.091
514.984	3.0	CS-	tools/ladder.jpg	Old	acquisition	DO	H	H	1.568
522.1	3.0	CS-	tools/broom.jpg	Old	extinction	MO	H	M	1.15
529.234	3.0	CS-	tools/ruler.jpg	Old	extinction	DO	H	H	0.9520000000000001
536.351	3.0	CS-	tools/monkeywrench.jpg	Old	baseline	MO	H	M	0.992
544.501	3.0	CS-	tools/measuringtape.jpg	Old	baseline	MO	H	M	1.694
552.634	3.0	CS+	animals/panda.jpg	New	foil	DO	FA	FA	1.126
560.784	3.0	CS+	animals/ladybug.jpg	New	foil	MN	CR	CR	1.485
568.934	3.0	CS+	animals/woodlouse.jpg	New	foil	MN	CR	CR	1.8130000000000002
576.0840000000001	3.0	CS+	animals/flounder.jpg	New	foil	MO	FA	CR	1.146
583.234	3.0	CS-	tools/mellonballer.jpg	New	foil	MN	CR	CR	1.287
590.367	3.0	CS-	tools/magnet.jpg	New	foil	MO	FA	CR	1.412
598.484	3.0	CS-	tools/burnisher.jpg	New	foil	MN	CR	CR	1.554
606.634	3.0	CS-	tools/wateringcan.jpg	New	foil	DN	CR	CR	2.138
