onset	duration	trial_type	stimulus	memory_condition	encode_phase	response	low_confidence_accuracy	high_confidence_accuracy	response_time
4.05	3.0	CS-	tools/gong.jpg	Old	acquisition	MN	M	M	1.484
11.2	3.0	CS-	tools/benchdogs.jpg	Old	extinction	MN	M	M	1.7280000000000002
18.35	3.0	CS+	animals/assassinbug.jpg	Old	extinction	MN	M	M	1.1420000000000001
25.5	3.0	CS-	tools/crank.jpg	New	foil	MN	CR	CR	1.594
32.633	3.0	CS+	animals/zebra.jpg	Old	baseline	DO	H	H	1.39
39.766	3.0	CS-	tools/beaker.jpg	Old	extinction	MO	H	M	1.334
46.883	3.0	CS-	tools/compass.jpg	New	foil	MN	CR	CR	1.359
54.016000000000005	3.0	CS-	tools/beadingtool.jpg	Old	acquisition	MO	H	M	1.91
61.133	3.0	CS-	tools/vacuumcleaner.jpg	New	foil	MN	CR	CR	1.442
68.283	3.0	CS+	animals/flea.jpg	Old	acquisition	DO	H	H	0.935
75.416	3.0	CS+	animals/aardvark.jpg	Old	baseline	MO	H	M	1.129
82.53299999999999	3.0	CS-	tools/campingstove.jpg	Old	baseline	MO	H	M	1.26
89.666	3.0	CS-	tools/hourglass.jpg	New	foil	MN	CR	CR	1.193
96.8	3.0	CS-	tools/carpetblower.jpg	Old	baseline	MO	H	M	1.794
103.916	3.0	CS+	animals/dragonfly.jpg	Old	acquisition	MO	H	M	2.04
111.066	3.0	CS+	animals/catfish.jpg	Old	extinction	MO	H	M	1.954
118.21600000000001	3.0	CS+	animals/lobsterspiny.jpg	New	foil	MN	CR	CR	1.2009999999999998
125.35	3.0	CS+	animals/toucan.jpg	New	foil	MN	CR	CR	1.531
132.483	3.0	CS+	animals/clam.jpg	New	foil	DN	CR	CR	1.655
139.616	3.0	CS+	animals/clownfish.jpg	New	foil	MO	FA	CR	1.3630000000000002
146.75	3.0	CS+	animals/skunk.jpg	Old	baseline	DO	H	H	1.005
153.88299999999998	3.0	CS-	tools/reflexhammer.jpg	Old	acquisition	MO	H	M	2.244
161.033	3.0	CS-	tools/magnifyingglass.jpg	New	foil	MN	CR	CR	1.415
168.166	3.0	CS-	tools/vicegrips.jpg	New	foil	MO	FA	CR	1.6569999999999998
175.333	3.0	CS+	animals/angelfish.jpg	Old	acquisition	MO	H	M	1.3940000000000001
182.46599999999998	3.0	CS+	animals/palmcockatoo.jpg	Old	extinction	MO	H	M	1.235
189.583	3.0	CS-	tools/cheesegrater.jpg	Old	acquisition	MO	H	M	1.188
196.71599999999998	3.0	CS+	animals/ibises.jpg	New	foil	MO	FA	CR	0.9
203.85	3.0	CS+	animals/kangaroo.jpg	New	foil	MO	FA	CR	1.044
210.96599999999998	3.0	CS+	animals/lizard.jpg	New	foil	MN	CR	CR	1.4340000000000002
218.1	3.0	CS-	tools/treadmill.jpg	Old	baseline	DO	H	H	1.246
225.21599999999998	3.0	CS-	tools/tubeflaring.jpg	Old	extinction	MN	M	M	1.6
232.35	3.0	CS+	animals/finch.jpg	Old	baseline	MO	H	M	1.534
239.483	3.0	CS+	animals/ant.jpg	Old	extinction	DO	H	H	1.163
246.6	3.0	CS+	animals/deer.jpg	New	foil	MO	FA	CR	1.0979999999999999
253.71599999999998	3.0	CS-	tools/tape.jpg	New	foil	MO	FA	CR	2.122
260.85	3.0	CS-	tools/sander.jpg	Old	extinction	MN	M	M	1.466
267.967	3.0	CS-	tools/extensioncord.jpg	Old	baseline	DO	H	H	1.3230000000000002
275.116	3.0	CS-	tools/watch.jpg	New	foil	DN	CR	CR	1.599
282.233	3.0	CS+	animals/prayingmantis.jpg	Old	acquisition	DO	H	H	0.862
289.35	3.0	CS+	animals/pike.jpg	Old	acquisition	MO	H	M	1.249
297.466	3.0	CS+	animals/penguin.jpg	New	foil	MO	FA	CR	1.109
305.6	3.0	CS+	animals/reindeer.jpg	Old	baseline	MO	H	M	1.003
313.733	3.0	CS-	tools/clippers.jpg	New	foil	MN	CR	CR	1.733
321.85	3.0	CS+	animals/gecko.jpg	New	foil	MN	CR	CR	1.216
329.966	3.0	CS+	animals/vulture.jpg	New	foil	MN	CR	CR	1.575
338.1	3.0	CS-	tools/plunger.jpg	Old	acquisition	MO	H	M	1.5630000000000002
346.217	3.0	CS-	tools/mallet.jpg	Old	extinction	MN	M	M	1.232
354.35	3.0	CS-	tools/padlock.jpg	Old	baseline	DO	H	H	1.1
362.5	3.0	CS+	animals/crow.jpg	Old	acquisition	MO	H	M	1.411
370.65	3.0	CS+	animals/llama.jpg	Old	baseline	MO	H	M	0.9390000000000001
378.8	3.0	CS+	animals/snail.jpg	Old	extinction	MO	H	M	1.3519999999999999
386.93300000000005	3.0	CS-	tools/transmissionwrench.jpg	Old	acquisition	MN	M	M	1.3940000000000001
395.06699999999995	3.0	CS-	tools/vegetablepeeler.jpg	Old	extinction	MN	M	M	1.079
403.2	3.0	CS+	animals/macaw.jpg	New	foil	MO	FA	CR	1.11
411.35	3.0	CS-	tools/shovel.jpg	New	foil	MO	FA	CR	1.2329999999999999
419.5	3.0	CS-	tools/bucket.jpg	Old	baseline	MO	H	M	1.238
427.65	3.0	CS-	tools/nailgun.jpg	New	foil	MN	CR	CR	1.0859999999999999
435.8	3.0	CS-	tools/smartphone.jpg	New	foil	MN	CR	CR	1.3630000000000002
443.95	3.0	CS+	animals/baldeagle.jpg	Old	extinction	MO	H	M	1.756
452.1	3.0	CS+	animals/ostrich.jpg	Old	acquisition	DO	H	H	1.0070000000000001
460.25	3.0	CS+	animals/tiger.jpg	Old	acquisition	DO	H	H	0.7759999999999999
468.4	3.0	CS+	animals/duck.jpg	Old	extinction	MN	M	M	1.933
476.533	3.0	CS+	animals/shark.jpg	Old	extinction	MO	H	M	1.557
484.7	3.0	CS+	animals/rhino.jpg	Old	baseline	DO	H	H	0.802
492.85	3.0	CS+	animals/elephantafrican.jpg	Old	baseline	DO	H	H	1.465
500.967	3.0	CS-	tools/drillbit.jpg	Old	acquisition	MO	H	M	1.4380000000000002
509.11699999999996	3.0	CS-	tools/electricbreaker.jpg	Old	acquisition	MO	H	M	1.536
517.2669999999999	3.0	CS-	tools/viceclamp.jpg	Old	extinction	MN	M	M	1.609
525.4169999999999	3.0	CS-	tools/pruner.jpg	Old	extinction	MN	M	M	1.306
533.567	3.0	CS-	tools/paintbrush.jpg	Old	baseline	MO	H	M	1.16
541.7	3.0	CS-	tools/screwdriver.jpg	Old	baseline	MO	H	M	1.028
549.8330000000001	3.0	CS+	animals/cod.jpg	New	foil	MN	CR	CR	2.29
557.9830000000001	3.0	CS+	animals/dockbug2.jpg	New	foil	MN	CR	CR	1.169
566.117	3.0	CS+	animals/lion.jpg	New	foil	MO	FA	CR	1.33
574.25	3.0	CS+	animals/emu.jpg	New	foil	MN	CR	CR	2.741
582.4	3.0	CS-	tools/staplegun.jpg	New	foil	MN	CR	CR	1.016
590.533	3.0	CS-	tools/cuttingboard.jpg	New	foil	MN	CR	CR	1.217
598.6669999999999	3.0	CS-	tools/stethoscope.jpg	New	foil	MO	FA	CR	1.3559999999999999
606.8	3.0	CS-	tools/electricsewingmachine.jpg	New	foil	MN	CR	CR	2.066
