onset	duration	trial_type	stimulus	memory_condition	encode_phase	response	low_confidence_accuracy	high_confidence_accuracy	response_time
4.05	3.0	CS+	tools/shovel.jpg	New	foil	MN	CR	CR	1.808
11.217	3.0	CS-	animals/flea.jpg	Old	acquisition	MO	H	M	1.344
18.367	3.0	CS-	animals/assassinbug.jpg	Old	extinction	MN	M	M	1.785
25.517	3.0	CS+	tools/watch.jpg	New	foil	DN	CR	CR	1.6280000000000001
32.667	3.0	CS-	animals/aardvark.jpg	Old	baseline	MN	M	M	1.349
39.817	3.0	CS-	animals/deer.jpg	New	foil	DN	CR	CR	1.183
46.967	3.0	CS+	tools/campingstove.jpg	Old	baseline	DN	M	M	1.399
54.1	3.0	CS+	tools/carpetblower.jpg	Old	baseline	DO	H	H	1.3130000000000002
61.233999999999995	3.0	CS-	animals/catfish.jpg	Old	extinction	MO	H	M	1.102
68.367	3.0	CS-	animals/clownfish.jpg	New	foil	MN	CR	CR	1.082
75.517	3.0	CS+	tools/gong.jpg	Old	acquisition	MO	H	M	1.456
82.667	3.0	CS+	tools/smartphone.jpg	New	foil	DN	CR	CR	1.276
89.81700000000001	3.0	CS-	animals/toucan.jpg	New	foil	DN	CR	CR	1.7169999999999999
96.96700000000001	3.0	CS+	tools/benchdogs.jpg	Old	extinction	MN	M	M	1.435
104.117	3.0	CS+	tools/beadingtool.jpg	Old	acquisition	MN	M	M	1.6269999999999998
111.26700000000001	3.0	CS+	tools/magnifyingglass.jpg	New	foil	MN	CR	CR	1.36
118.417	3.0	CS-	animals/zebra.jpg	Old	baseline	MO	H	M	1.375
125.56700000000001	3.0	CS-	animals/dragonfly.jpg	Old	acquisition	MO	H	M	1.112
132.7	3.0	CS+	tools/beaker.jpg	Old	extinction	MO	H	M	1.395
139.834	3.0	CS-	animals/penguin.jpg	New	foil	MO	FA	CR	1.726
146.967	3.0	CS-	animals/skunk.jpg	Old	baseline	MO	H	M	1.266
154.11700000000002	3.0	CS+	tools/crank.jpg	New	foil	MN	CR	CR	1.3530000000000002
161.267	3.0	CS+	tools/treadmill.jpg	Old	baseline	MN	M	M	1.6680000000000001
168.417	3.0	CS-	animals/angelfish.jpg	Old	acquisition	MN	M	M	1.4040000000000001
175.567	3.0	CS-	animals/finch.jpg	Old	baseline	MO	H	M	1.4780000000000002
182.717	3.0	CS-	animals/lion.jpg	New	foil	MO	FA	CR	1.163
189.86700000000002	3.0	CS-	animals/dockbug2.jpg	New	foil	MO	FA	CR	1.31
197.0	3.0	CS+	tools/nailgun.jpg	New	foil	MO	FA	CR	1.5290000000000001
204.13400000000001	3.0	CS-	animals/ibises.jpg	New	foil	MN	CR	CR	1.163
211.25	3.0	CS+	tools/reflexhammer.jpg	Old	acquisition	MN	M	M	2.0140000000000002
218.38400000000001	3.0	CS+	tools/cuttingboard.jpg	New	foil	DN	CR	CR	1.095
225.517	3.0	CS+	tools/vacuumcleaner.jpg	New	foil	DN	CR	CR	1.263
232.667	3.0	CS+	tools/cheesegrater.jpg	Old	acquisition	DO	H	H	1.177
239.817	3.0	CS+	tools/tubeflaring.jpg	Old	extinction	MN	M	M	1.569
246.967	3.0	CS-	animals/prayingmantis.jpg	Old	acquisition	MN	M	M	1.317
254.1	3.0	CS-	animals/cod.jpg	New	foil	MN	CR	CR	1.202
261.233	3.0	CS+	tools/sander.jpg	Old	extinction	MN	M	M	1.5230000000000001
268.383	3.0	CS-	animals/palmcockatoo.jpg	Old	extinction	MN	M	M	1.383
275.517	3.0	CS+	tools/extensioncord.jpg	Old	baseline	DO	H	H	1.4409999999999998
282.66700000000003	3.0	CS-	animals/ant.jpg	Old	extinction	MO	H	M	1.1
289.783	3.0	CS-	animals/gecko.jpg	New	foil	MN	CR	CR	1.298
297.91700000000003	3.0	CS-	animals/reindeer.jpg	Old	baseline	MO	H	M	1.409
306.067	3.0	CS-	animals/pike.jpg	Old	acquisition	MN	M	M	1.445
314.2	3.0	CS+	tools/plunger.jpg	Old	acquisition	MO	H	M	1.4409999999999998
322.33299999999997	3.0	CS-	animals/llama.jpg	Old	baseline	MN	M	M	1.742
330.467	3.0	CS+	tools/padlock.jpg	Old	baseline	DO	H	H	1.031
338.583	3.0	CS-	animals/lobsterspiny.jpg	New	foil	MN	CR	CR	1.493
346.7	3.0	CS+	tools/bucket.jpg	Old	baseline	MN	M	M	1.348
354.833	3.0	CS-	animals/clam.jpg	New	foil	DN	CR	CR	1.462
362.967	3.0	CS-	animals/crow.jpg	Old	acquisition	MO	H	M	1.385
371.11699999999996	3.0	CS-	animals/lizard.jpg	New	foil	MN	CR	CR	1.175
379.267	3.0	CS-	animals/snail.jpg	Old	extinction	MN	M	M	1.5819999999999999
387.38300000000004	3.0	CS+	tools/compass.jpg	New	foil	DN	CR	CR	1.286
395.517	3.0	CS+	tools/stethoscope.jpg	New	foil	MO	FA	CR	1.5959999999999999
403.63300000000004	3.0	CS+	tools/mallet.jpg	Old	extinction	MN	M	M	1.165
411.767	3.0	CS+	tools/staplegun.jpg	New	foil	MN	CR	CR	1.5330000000000001
419.88300000000004	3.0	CS+	tools/vicegrips.jpg	New	foil	DN	CR	CR	1.4080000000000001
428.017	3.0	CS+	tools/transmissionwrench.jpg	Old	acquisition	MN	M	M	1.234
436.13300000000004	3.0	CS+	tools/vegetablepeeler.jpg	Old	extinction	MO	H	M	1.31
444.25	3.0	CS-	animals/baldeagle.jpg	Old	extinction	DO	H	H	1.4980000000000002
452.4	3.0	CS-	animals/ostrich.jpg	Old	acquisition	MO	H	M	1.565
460.55	3.0	CS-	animals/tiger.jpg	Old	acquisition	MO	H	M	1.12
468.7	3.0	CS-	animals/duck.jpg	Old	extinction	MO	H	M	1.524
476.833	3.0	CS-	animals/shark.jpg	Old	extinction	MO	H	M	1.2
484.967	3.0	CS-	animals/rhino.jpg	Old	baseline	MO	H	M	1.565
493.083	3.0	CS-	animals/elephantafrican.jpg	Old	baseline	MO	H	M	1.4880000000000002
501.233	3.0	CS+	tools/drillbit.jpg	Old	acquisition	MO	H	M	1.3330000000000002
509.36699999999996	3.0	CS+	tools/electricbreaker.jpg	Old	acquisition	MO	H	M	1.2109999999999999
517.5	3.0	CS+	tools/viceclamp.jpg	Old	extinction	MN	M	M	1.325
525.633	3.0	CS+	tools/pruner.jpg	Old	extinction	MN	M	M	1.4269999999999998
533.7669999999999	3.0	CS+	tools/paintbrush.jpg	Old	baseline	MO	H	M	1.3259999999999998
541.9	3.0	CS+	tools/screwdriver.jpg	Old	baseline	MO	H	M	1.589
550.05	3.0	CS-	animals/macaw.jpg	New	foil	MO	FA	CR	1.599
558.2	3.0	CS-	animals/emu.jpg	New	foil	MN	CR	CR	1.391
566.3330000000001	3.0	CS-	animals/vulture.jpg	New	foil	MN	CR	CR	1.251
574.467	3.0	CS-	animals/kangaroo.jpg	New	foil	MN	CR	CR	1.511
582.6	3.0	CS+	tools/tape.jpg	New	foil	MO	FA	CR	1.983
590.75	3.0	CS+	tools/hourglass.jpg	New	foil	MN	CR	CR	1.21
598.9	3.0	CS+	tools/electricsewingmachine.jpg	New	foil	MO	FA	CR	1.8780000000000001
607.05	3.0	CS+	tools/clippers.jpg	New	foil	MN	CR	CR	1.6030000000000002
