onset	duration	trial_type	stimulus	memory_condition	encode_phase	response	low_confidence_accuracy	high_confidence_accuracy	response_time
4.033	3.0	CS+	tools/sander.jpg	Old	extinction	MO	H	M	1.893
11.116	3.0	CS+	tools/bolt.jpg	New	foil	DN	CR	CR	1.065
18.2	3.0	CS+	tools/drillbit.jpg	Old	acquisition	MO	H	M	2.12
25.3	3.0	CS+	tools/pruner.jpg	Old	extinction	MN	M	M	1.943
32.4	3.0	CS-	animals/ladybug.jpg	New	foil	MN	CR	CR	2.2
39.5	3.0	CS+	tools/treadmill.jpg	Old	baseline	DO	H	H	1.6740000000000002
46.6	3.0	CS-	animals/angelfish.jpg	Old	acquisition	MO	H	M	1.953
53.7	3.0	CS-	animals/balloonfish.jpg	New	foil	MO	FA	CR	2.002
61.8	3.0	CS-	animals/finch.jpg	Old	baseline	MO	H	M	2.479
68.866	3.0	CS-	animals/dragonfly.jpg	Old	acquisition	DO	H	H	2.298
75.95	3.0	CS+	tools/plunger.jpg	Old	acquisition	DO	H	H	1.176
84.05	3.0	CS+	tools/grapplinghook.jpg	New	foil	DN	CR	CR	1.212
91.116	3.0	CS-	animals/bullfrog.jpg	New	foil	DO	FA	FA	2.483
99.2	3.0	CS+	tools/caulkinggun.jpg	New	foil	DN	CR	CR	2.1719999999999997
107.3	3.0	CS+	tools/whisk.jpg	New	foil	DN	CR	CR	1.4340000000000002
114.4	3.0	CS+	tools/campingstove.jpg	Old	baseline	DN	M	M	1.7369999999999999
121.5	3.0	CS-	animals/duck.jpg	Old	extinction	MN	M	M	2.26
128.6	3.0	CS-	animals/skunk.jpg	Old	baseline	DO	H	H	1.425
136.7	3.0	CS-	animals/catfish.jpg	Old	extinction	MN	M	M	2.352
143.8	3.0	CS-	animals/monkey.jpg	New	foil	DO	FA	FA	2.313
151.866	3.0	CS-	animals/woodlouse.jpg	New	foil	DN	CR	CR	2.344
158.95	3.0	CS+	tools/beaker.jpg	Old	extinction	DO	H	H	1.8430000000000002
167.05	3.0	CS-	animals/rhino.jpg	Old	baseline	MO	H	M	2.296
174.11599999999999	3.0	CS+	tools/level.jpg	New	foil	DN	CR	CR	2.289
181.2	3.0	CS+	tools/mallet.jpg	Old	extinction	MO	H	M	2.397
189.266	3.0	CS+	tools/extensioncord.jpg	Old	baseline	MN	M	M	2.8710000000000004
196.35	3.0	CS-	animals/flea.jpg	Old	acquisition	DO	H	H	1.473
204.45	3.0	CS+	tools/engine.jpg	New	foil	MN	CR	CR	2.628
211.516	3.0	CS-	animals/panda.jpg	New	foil	MO	FA	CR	1.903
218.6	3.0	CS+	tools/padlock.jpg	Old	baseline	MO	H	M	1.686
226.7	3.0	CS+	tools/reflexhammer.jpg	Old	acquisition	DO	H	H	1.806
234.8	3.0	CS-	animals/octopus.jpg	New	foil	DN	CR	CR	1.929
242.86599999999999	3.0	CS-	animals/zebra.jpg	Old	baseline	DO	H	H	1.4809999999999999
249.95	3.0	CS-	animals/highlandcow.jpg	New	foil	MO	FA	CR	1.749
258.01599999999996	3.0	CS+	tools/keys.jpg	New	foil	DN	CR	CR	1.6059999999999999
266.1	3.0	CS+	tools/beadingtool.jpg	Old	acquisition	DO	H	H	2.225
274.2	3.0	CS-	animals/palmcockatoo.jpg	Old	extinction	MN	M	M	2.336
282.3	3.0	CS-	animals/assassinbug.jpg	Old	extinction	MN	M	M	2.245
290.366	3.0	CS+	tools/magnet.jpg	New	foil	MN	CR	CR	2.589
298.433	3.0	CS-	animals/prayingmantis.jpg	Old	acquisition	DO	H	H	1.24
306.51599999999996	3.0	CS-	animals/hermitcrab.jpg	New	foil	MN	CR	CR	1.8230000000000002
314.6	3.0	CS-	animals/tiger.jpg	Old	acquisition	DO	H	H	1.028
322.666	3.0	CS-	animals/pike.jpg	Old	acquisition	DO	H	H	2.25
330.733	3.0	CS-	animals/aardvark.jpg	Old	baseline	MO	H	M	2.347
338.8	3.0	CS-	animals/seaslug.jpg	New	foil	DN	CR	CR	1.8419999999999999
346.88300000000004	3.0	CS-	animals/baldeagle.jpg	Old	extinction	DO	H	H	1.084
354.95	3.0	CS-	animals/elephantafrican.jpg	Old	baseline	DO	H	H	1.517
362.033	3.0	CS+	tools/bucket.jpg	Old	baseline	MO	H	M	2.593
369.116	3.0	CS+	tools/tubeflaring.jpg	Old	extinction	MN	M	M	2.84
376.2	3.0	CS+	tools/microscope.jpg	New	foil	DN	CR	CR	1.9280000000000002
383.26599999999996	3.0	CS+	tools/vegetablepeeler.jpg	Old	extinction	DN	M	M	1.722
390.35	3.0	CS+	tools/dremel.jpg	New	foil	MN	CR	CR	2.003
398.43300000000005	3.0	CS-	animals/shark.jpg	Old	extinction	DO	H	H	1.245
406.5	3.0	CS-	animals/flounder.jpg	New	foil	MO	FA	CR	1.6059999999999999
413.583	3.0	CS+	tools/gong.jpg	Old	acquisition	DO	H	H	1.64
421.666	3.0	CS+	tools/burnisher.jpg	New	foil	MN	CR	CR	2.194
429.75	3.0	CS+	tools/paintbrush.jpg	Old	baseline	DO	H	H	1.3259999999999998
436.833	3.0	CS+	tools/electricdrill.jpg	New	foil	MN	CR	CR	1.8359999999999999
443.916	3.0	CS-	animals/waterdragon.jpg	New	foil	DO	FA	FA	2.1790000000000003
451.983	3.0	CS+	tools/cheesegrater.jpg	Old	acquisition	MN	M	M	1.6230000000000002
459.066	3.0	CS-	animals/stickinsect.jpg	New	foil	MN	CR	CR	1.966
467.13300000000004	3.0	CS-	animals/reindeer.jpg	Old	baseline	DO	H	H	1.689
475.216	3.0	CS-	animals/tortoise.jpg	New	foil	MN	CR	CR	1.669
483.3	3.0	CS+	tools/mellonballer.jpg	New	foil	MN	CR	CR	2.605
491.38300000000004	3.0	CS-	animals/crow.jpg	Old	acquisition	DN	M	M	1.95
499.466	3.0	CS+	tools/viceclamp.jpg	Old	extinction	DN	M	M	2.6639999999999997
506.533	3.0	CS+	tools/wateringcan.jpg	New	foil	DN	CR	CR	1.355
513.616	3.0	CS-	animals/koala.jpg	New	foil	DO	FA	FA	1.518
521.7	3.0	CS+	tools/carpetblower.jpg	Old	baseline	DO	H	H	1.2
528.766	3.0	CS+	tools/electricbreaker.jpg	Old	acquisition	DO	H	H	2.113
536.8330000000001	3.0	CS-	animals/crane.jpg	New	foil	MN	CR	CR	2.191
543.9159999999999	3.0	CS-	animals/llama.jpg	Old	baseline	DO	H	H	1.459
551.0	3.0	CS+	tools/lantern.jpg	New	foil	MO	FA	CR	2.168
559.0830000000001	3.0	CS+	tools/transmissionwrench.jpg	Old	acquisition	MN	M	M	2.075
566.1659999999999	3.0	CS-	animals/ostrich.jpg	Old	acquisition	DO	H	H	1.107
573.25	3.0	CS+	tools/benchdogs.jpg	Old	extinction	DN	M	M	1.7380000000000002
580.3330000000001	3.0	CS-	animals/snail.jpg	Old	extinction	MN	M	M	2.121
587.4169999999999	3.0	CS+	tools/screwdriver.jpg	Old	baseline	DO	H	H	2.199
595.4830000000001	3.0	CS+	tools/whistle.jpg	New	foil	MN	CR	CR	1.955
603.566	3.0	CS-	animals/ant.jpg	Old	extinction	DO	H	H	1.182
