onset	duration	trial_type	stimulus	memory_condition	encode_phase	response	low_confidence_accuracy	high_confidence_accuracy	response_time
4.033	3.0	CS+	animals/dockbug2.jpg	New	foil	DN	CR	CR	1.9169999999999998
11.117	3.0	CS+	animals/partridge.jpg	Old	acquisition	DO	H	H	1.044
18.2	3.0	CS+	animals/halibut.jpg	Old	extinction	DO	H	H	1.546
25.267	3.0	CS-	tools/clippers.jpg	New	foil	DO	FA	FA	0.7959999999999999
32.35	3.0	CS+	animals/anteater.jpg	Old	acquisition	DO	H	H	0.892
39.45	3.0	CS-	tools/smartphone.jpg	New	foil	DO	FA	FA	0.858
46.55	3.0	CS+	animals/ibises.jpg	New	foil	DO	FA	FA	0.759
53.65	3.0	CS-	tools/eraser.jpg	Old	acquisition	DO	H	H	0.835
60.75	3.0	CS-	tools/electricsewingmachine.jpg	New	foil	DN	CR	CR	1.219
67.85	3.0	CS-	tools/nailgun.jpg	New	foil	DN	CR	CR	0.87
74.95	3.0	CS+	animals/gecko.jpg	New	foil	DN	CR	CR	1.432
82.01700000000001	3.0	CS+	animals/herculesbeetle.jpg	Old	baseline	DN	M	M	1.208
89.1	3.0	CS-	tools/shoehorn.jpg	Old	baseline	DO	H	H	1.314
96.167	3.0	CS+	animals/quail.jpg	Old	baseline	DN	M	M	1.4069999999999998
103.26700000000001	3.0	CS+	animals/toucan.jpg	New	foil	DN	CR	CR	0.851
110.367	3.0	CS-	tools/videogamecontroller.jpg	Old	extinction	DN	M	M	0.705
117.45	3.0	CS-	tools/duffelbag.jpg	Old	extinction	DO	H	H	1.288
124.53299999999999	3.0	CS+	animals/cranebug.jpg	Old	extinction	DO	H	H	0.927
131.61700000000002	3.0	CS-	tools/weldinghelmet.jpg	Old	baseline	DO	H	H	1.148
138.683	3.0	CS-	tools/woodchipper.jpg	Old	acquisition	DO	H	H	0.736
145.767	3.0	CS+	animals/carp.jpg	Old	acquisition	DO	H	H	0.887
152.86700000000002	3.0	CS-	tools/stove.jpg	Old	baseline	DO	H	H	1.29
159.967	3.0	CS+	animals/lion.jpg	New	foil	DO	FA	FA	1.683
167.03400000000002	3.0	CS-	tools/compass.jpg	New	foil	DO	FA	FA	1.3840000000000001
174.11700000000002	3.0	CS-	tools/airpump.jpg	Old	extinction	DO	H	H	0.998
181.18400000000003	3.0	CS+	animals/snapper.jpg	Old	baseline	DO	H	H	0.9279999999999999
188.267	3.0	CS-	tools/routerplane.jpg	Old	acquisition	DO	H	H	1.082
195.334	3.0	CS+	animals/starfish.jpg	Old	extinction	DN	M	M	1.12
202.433	3.0	CS+	animals/turkey.jpg	Old	acquisition	DO	H	H	0.868
209.517	3.0	CS-	tools/vacuumcleaner.jpg	New	foil	MO	FA	CR	1.056
216.6	3.0	CS-	tools/watch.jpg	New	foil	DO	FA	FA	2.017
223.68400000000003	3.0	CS-	tools/cuttingboard.jpg	New	foil	MO	FA	CR	0.848
230.75	3.0	CS+	animals/kangaroo.jpg	New	foil	MO	FA	CR	1.051
237.834	3.0	CS+	animals/vulture.jpg	New	foil	MO	FA	CR	1.68
244.917	3.0	CS+	animals/clam.jpg	New	foil	MN	CR	CR	0.9329999999999999
251.984	3.0	CS-	tools/paintroller.jpg	Old	baseline	DN	M	M	1.29
259.084	3.0	CS-	tools/measuringdevice.jpg	Old	acquisition	DO	H	H	0.938
266.184	3.0	CS-	tools/toaster.jpg	Old	extinction	DO	H	H	0.87
273.284	3.0	CS+	animals/canary.jpg	Old	extinction	MO	H	M	1.55
280.367	3.0	CS+	animals/hummingbird.jpg	Old	baseline	DO	H	H	1.0190000000000001
287.467	3.0	CS+	animals/emu.jpg	New	foil	MO	FA	CR	1.139
295.567	3.0	CS-	tools/squeegee.jpg	Old	extinction	MO	H	M	0.6509999999999999
303.634	3.0	CS+	animals/waterbuffalo.jpg	Old	baseline	MO	H	M	1.034
311.73400000000004	3.0	CS+	animals/chipmunk.jpg	Old	acquisition	MO	H	M	1.147
319.817	3.0	CS-	tools/crank.jpg	New	foil	MO	FA	CR	2.238
327.9	3.0	CS-	tools/shovel.jpg	New	foil	MO	FA	CR	0.7959999999999999
335.98400000000004	3.0	CS+	animals/perch.jpg	Old	extinction	MO	H	M	0.763
344.05	3.0	CS-	tools/chisel.jpg	Old	baseline	MO	H	M	1.023
352.134	3.0	CS-	tools/magnifyingglass.jpg	New	foil	MO	FA	CR	0.723
360.23400000000004	3.0	CS-	tools/rake.jpg	Old	baseline	MO	H	M	1.165
368.3	3.0	CS+	animals/baboon.jpg	Old	baseline	MO	H	M	0.777
376.384	3.0	CS-	tools/blower.jpg	Old	extinction	MO	H	M	1.09
384.48400000000004	3.0	CS+	animals/cod.jpg	New	foil	MN	CR	CR	0.815
392.55	3.0	CS-	tools/vicegrips.jpg	New	foil	MO	FA	CR	0.846
400.634	3.0	CS-	tools/weedeater.jpg	Old	acquisition	MO	H	M	0.743
408.73400000000004	3.0	CS-	tools/lawnmower.jpg	Old	acquisition	MO	H	M	0.7929999999999999
416.834	3.0	CS+	animals/penguin.jpg	New	foil	MO	FA	CR	0.88
424.9	3.0	CS+	animals/macaw.jpg	New	foil	DN	CR	CR	0.462
432.98400000000004	3.0	CS+	animals/seal.jpg	Old	acquisition	DO	H	H	1.254
441.084	3.0	CS+	animals/salmon.jpg	Old	extinction	MO	H	M	1.05
449.15	3.0	CS+	animals/leopard.jpg	Old	baseline	MO	H	M	0.7759999999999999
457.251	3.0	CS+	animals/cow.jpg	Old	baseline	DO	H	H	0.9229999999999999
465.351	3.0	CS+	animals/brown_bear.jpg	Old	acquisition	DO	H	H	2.135
473.45099999999996	3.0	CS+	animals/rabbit.jpg	Old	acquisition	MO	H	M	1.045
481.534	3.0	CS+	animals/racoon.jpg	Old	extinction	DO	H	H	0.768
489.634	3.0	CS+	animals/cat.jpg	Old	extinction	DO	H	H	0.669
497.73400000000004	3.0	CS-	tools/wheelbarrow.jpg	Old	baseline	DO	H	H	0.621
505.834	3.0	CS-	tools/pliers.jpg	Old	baseline	MO	H	M	0.991
513.934	3.0	CS-	tools/spoon.jpg	Old	acquisition	DO	H	H	0.748
522.001	3.0	CS-	tools/wrench.jpg	Old	acquisition	MO	H	M	1.088
530.101	3.0	CS-	tools/chainsaw.jpg	Old	extinction	DN	M	M	1.76
538.201	3.0	CS-	tools/hammer.jpg	Old	extinction	DN	M	M	1.3359999999999999
546.284	3.0	CS+	animals/lizard.jpg	New	foil	DO	FA	FA	1.574
554.367	3.0	CS+	animals/lobsterspiny.jpg	New	foil	DO	FA	FA	1.155
562.451	3.0	CS+	animals/clownfish.jpg	New	foil	DO	FA	FA	1.5730000000000002
570.5509999999999	3.0	CS+	animals/deer.jpg	New	foil	DO	FA	FA	0.768
578.651	3.0	CS-	tools/stethoscope.jpg	New	foil	DO	FA	FA	0.968
586.751	3.0	CS-	tools/staplegun.jpg	New	foil	MO	FA	CR	0.574
594.851	3.0	CS-	tools/hourglass.jpg	New	foil	MO	FA	CR	0.655
602.951	3.0	CS-	tools/tape.jpg	New	foil	MO	FA	CR	0.843
