onset	duration	trial_type	stimulus	memory_condition	encode_phase	response	low_confidence_accuracy	high_confidence_accuracy	response_time
4.05	3.0	CS+	tools/stapler.jpg	New	foil	MN	CR	CR	1.66
11.183	3.0	CS-	animals/armadillo.jpg	New	foil	MN	CR	CR	2.173
18.333	3.0	CS-	animals/caterpillarhawkmoth.jpg	Old	extinction	DO	H	H	1.5819999999999999
25.465999999999998	3.0	CS-	animals/stinkbug.jpg	New	foil	MN	CR	CR	2.0069999999999997
32.633	3.0	CS+	tools/camera.jpg	Old	extinction	DO	H	H	1.242
39.766	3.0	CS-	animals/tragopan.jpg	New	foil	DN	CR	CR	1.544
46.9	3.0	CS-	animals/firebug.jpg	Old	acquisition	DO	H	H	1.2109999999999999
54.033	3.0	CS+	tools/telephone.jpg	New	foil	MO	FA	CR	1.734
61.183	3.0	CS+	tools/razorblade.jpg	New	foil	DN	CR	CR	1.8259999999999998
68.333	3.0	CS+	tools/plow.jpg	Old	baseline	DO	H	H	1.256
75.483	3.0	CS-	animals/caterpillarpeacockmoth.jpg	Old	baseline	DO	H	H	0.995
82.633	3.0	CS+	tools/faxmachine.jpg	Old	baseline	DN	M	M	1.671
89.8	3.0	CS-	animals/orangutan.jpg	New	foil	DN	CR	CR	1.3840000000000001
96.95	3.0	CS+	tools/levelmount.jpg	Old	acquisition	DN	M	M	1.237
104.1	3.0	CS-	animals/mahimahi.jpg	Old	acquisition	DO	H	H	1.229
111.23299999999999	3.0	CS-	animals/mole.jpg	Old	baseline	DO	H	H	1.455
118.4	3.0	CS+	tools/anvil.jpg	New	foil	MN	CR	CR	1.819
125.55	3.0	CS+	tools/blackboard.jpg	Old	acquisition	DO	H	H	1.47
132.7	3.0	CS+	tools/solderingtorch.jpg	Old	extinction	DO	H	H	1.3880000000000001
139.85	3.0	CS-	animals/hyena.jpg	Old	extinction	DN	M	M	1.6219999999999999
146.983	3.0	CS+	tools/sparkplug.jpg	Old	acquisition	MO	H	M	2.115
154.11700000000002	3.0	CS+	tools/ropeandpulley.jpg	Old	baseline	DO	H	H	1.335
161.25	3.0	CS-	animals/cricket.jpg	Old	extinction	MN	M	M	2.397
168.4	3.0	CS-	animals/boar.jpg	Old	baseline	MO	H	M	2.1919999999999997
175.55	3.0	CS+	tools/hairdryer.jpg	Old	baseline	DO	H	H	1.2690000000000001
182.683	3.0	CS+	tools/laptop.jpg	New	foil	MN	CR	CR	1.4569999999999999
189.85	3.0	CS+	tools/microwave.jpg	Old	extinction	MN	M	M	2.3040000000000003
197.0	3.0	CS+	tools/fan.jpg	Old	acquisition	DO	H	H	1.236
204.13299999999998	3.0	CS-	animals/gerbil.jpg	Old	baseline	DO	H	H	1.119
211.267	3.0	CS+	tools/pizzacutter.jpg	New	foil	DN	CR	CR	1.329
218.38299999999998	3.0	CS+	tools/flashlight.jpg	New	foil	MO	FA	CR	2.592
225.55	3.0	CS-	animals/earthworm.jpg	New	foil	DN	CR	CR	0.986
232.7	3.0	CS-	animals/herring.jpg	Old	acquisition	MO	H	M	2.524
239.833	3.0	CS+	tools/workbench.jpg	Old	extinction	DN	M	M	1.6380000000000001
247.0	3.0	CS-	animals/wasp.jpg	New	foil	DN	CR	CR	1.122
254.13299999999998	3.0	CS+	tools/pick.jpg	New	foil	DO	FA	FA	1.193
261.267	3.0	CS-	animals/dramaderry.jpg	Old	acquisition	DO	H	H	1.327
268.4	3.0	CS-	animals/rooster.jpg	New	foil	MN	CR	CR	1.91
275.55	3.0	CS-	animals/owl.jpg	New	foil	DO	FA	FA	1.314
282.683	3.0	CS-	animals/goldfish.jpg	Old	extinction	DO	H	H	1.4380000000000002
289.83299999999997	3.0	CS+	tools/thermometer.jpg	Old	acquisition	MO	H	M	1.959
297.983	3.0	CS+	tools/clamp.jpg	New	foil	MN	CR	CR	1.891
306.133	3.0	CS+	tools/measuringcups.jpg	Old	acquisition	DO	H	H	1.551
314.25	3.0	CS-	animals/camel.jpg	Old	acquisition	DO	H	H	2.171
322.383	3.0	CS+	tools/rollingpin.jpg	Old	baseline	MO	H	M	2.003
330.5	3.0	CS-	animals/malaysianjunglenymph.jpg	New	foil	DN	CR	CR	1.238
338.63300000000004	3.0	CS+	tools/duster.jpg	New	foil	DN	CR	CR	1.3019999999999998
346.767	3.0	CS+	tools/gardenhose.jpg	Old	baseline	DO	H	H	1.024
354.917	3.0	CS-	animals/porcupine.jpg	Old	baseline	DO	H	H	1.088
363.06699999999995	3.0	CS+	tools/hedgeshears.jpg	New	foil	MN	CR	CR	1.761
371.2	3.0	CS-	animals/slug.jpg	New	foil	DN	CR	CR	1.4280000000000002
379.333	3.0	CS-	animals/mink.jpg	Old	acquisition	DO	H	H	0.998
387.45	3.0	CS-	animals/crab.jpg	New	foil	MN	CR	CR	1.785
395.584	3.0	CS-	animals/marmot.jpg	Old	extinction	DO	H	H	1.469
403.73400000000004	3.0	CS-	animals/pelican.jpg	Old	baseline	MO	H	M	1.236
411.884	3.0	CS+	tools/sawblade.jpg	New	foil	MN	CR	CR	1.63
420.017	3.0	CS+	tools/edger.jpg	Old	extinction	MO	H	M	2.742
428.167	3.0	CS-	animals/dove.jpg	New	foil	MO	FA	CR	1.9069999999999998
436.31699999999995	3.0	CS+	tools/jumpercables.jpg	Old	extinction	DO	H	H	1.1059999999999999
444.467	3.0	CS-	animals/flamingo.jpg	Old	extinction	DN	M	M	2.244
452.584	3.0	CS-	animals/giraffe.jpg	Old	baseline	DO	H	H	1.692
460.717	3.0	CS-	animals/pigeon.jpg	Old	baseline	DO	H	H	1.238
468.85	3.0	CS-	animals/mouse.jpg	Old	acquisition	DO	H	H	1.445
476.967	3.0	CS-	animals/sheep.jpg	Old	acquisition	DO	H	H	1.39
485.1	3.0	CS-	animals/shrimp.jpg	Old	extinction	MO	H	M	1.561
493.23400000000004	3.0	CS-	animals/horse.jpg	Old	extinction	MN	M	M	2.698
501.36699999999996	3.0	CS+	tools/scissors.jpg	Old	baseline	MN	M	M	2.234
509.48400000000004	3.0	CS+	tools/ladder.jpg	Old	baseline	DN	M	M	1.9580000000000002
517.634	3.0	CS+	tools/broom.jpg	Old	acquisition	DO	H	H	1.8090000000000002
525.7669999999999	3.0	CS+	tools/ruler.jpg	Old	acquisition	DO	H	H	1.013
533.884	3.0	CS+	tools/monkeywrench.jpg	Old	extinction	DO	H	H	0.802
542.0	3.0	CS+	tools/measuringtape.jpg	Old	extinction	DO	H	H	0.8320000000000001
550.134	3.0	CS-	animals/caracal.jpg	New	foil	DN	CR	CR	1.244
558.2669999999999	3.0	CS-	animals/beardeddragon.jpg	New	foil	MN	CR	CR	1.7380000000000002
566.4169999999999	3.0	CS-	animals/leafinsect.jpg	New	foil	DN	CR	CR	1.103
574.567	3.0	CS-	animals/marlin.jpg	New	foil	DN	CR	CR	1.7009999999999998
582.684	3.0	CS+	tools/carabiner.jpg	New	foil	DN	CR	CR	1.4680000000000002
590.817	3.0	CS+	tools/scratchawl.jpg	New	foil	MO	FA	CR	2.947
598.934	3.0	CS+	tools/battery.jpg	New	foil	DN	CR	CR	2.3280000000000003
607.0840000000001	3.0	CS+	tools/snowbrush.jpg	New	foil	MN	CR	CR	2.151
