onset	duration	trial_type	stimulus	memory_condition	encode_phase	response	low_confidence_accuracy	high_confidence_accuracy	response_time
4.033	3.0	CS-	animals/racoon.jpg	Old	extinction	DO	H	H	1.179
11.117	3.0	CS-	animals/quail.jpg	Old	baseline	DN	M	M	1.1840000000000002
18.217	3.0	CS-	animals/clam.jpg	New	foil	DN	CR	CR	1.186
25.3	3.0	CS+	tools/stethoscope.jpg	New	foil	DO	FA	FA	1.621
32.4	3.0	CS-	animals/rabbit.jpg	Old	acquisition	DO	H	H	1.062
39.483000000000004	3.0	CS+	tools/hourglass.jpg	New	foil	DN	CR	CR	1.1
46.567	3.0	CS+	tools/vacuumcleaner.jpg	New	foil	DN	CR	CR	1.119
53.667	3.0	CS-	animals/cranebug.jpg	Old	extinction	DO	H	H	1.851
60.75	3.0	CS+	tools/weedeater.jpg	Old	acquisition	DO	H	H	1.115
67.833	3.0	CS-	animals/lizard.jpg	New	foil	DO	FA	FA	1.339
74.933	3.0	CS+	tools/wheelbarrow.jpg	Old	baseline	DO	H	H	0.9670000000000001
82.01700000000001	3.0	CS-	animals/leopard.jpg	Old	baseline	DN	M	M	1.3259999999999998
89.117	3.0	CS+	tools/eraser.jpg	Old	acquisition	DO	H	H	1.087
96.21700000000001	3.0	CS-	animals/macaw.jpg	New	foil	DO	FA	FA	0.722
103.31700000000001	3.0	CS-	animals/clownfish.jpg	New	foil	DO	FA	FA	1.159
110.4	3.0	CS+	tools/shoehorn.jpg	Old	baseline	DN	M	M	1.374
117.5	3.0	CS+	tools/hammer.jpg	Old	extinction	DO	H	H	0.838
124.6	3.0	CS+	tools/toaster.jpg	Old	extinction	DO	H	H	1.028
131.683	3.0	CS-	animals/brown_bear.jpg	Old	acquisition	DO	H	H	0.8240000000000001
138.783	3.0	CS+	tools/electricsewingmachine.jpg	New	foil	DN	CR	CR	1.092
145.88299999999998	3.0	CS-	animals/cod.jpg	New	foil	DO	FA	FA	1.338
152.983	3.0	CS-	animals/herculesbeetle.jpg	Old	baseline	DO	H	H	1.248
160.067	3.0	CS-	animals/ibises.jpg	New	foil	DO	FA	FA	1.185
167.15	3.0	CS+	tools/spoon.jpg	Old	acquisition	DN	M	M	1.275
174.25	3.0	CS-	animals/lion.jpg	New	foil	DO	FA	FA	0.977
181.334	3.0	CS+	tools/cuttingboard.jpg	New	foil	DN	CR	CR	1.39
188.43400000000003	3.0	CS+	tools/pliers.jpg	Old	baseline	DO	H	H	1.0090000000000001
195.533	3.0	CS+	tools/videogamecontroller.jpg	Old	extinction	DO	H	H	1.074
202.63299999999998	3.0	CS+	tools/tape.jpg	New	foil	DN	CR	CR	1.222
209.734	3.0	CS+	tools/chisel.jpg	Old	baseline	DO	H	H	1.609
216.817	3.0	CS+	tools/measuringdevice.jpg	Old	acquisition	DN	M	M	1.729
223.9	3.0	CS+	tools/shovel.jpg	New	foil	DO	FA	FA	1.209
231.0	3.0	CS-	animals/starfish.jpg	Old	extinction	DO	H	H	1.7530000000000001
238.1	3.0	CS+	tools/magnifyingglass.jpg	New	foil	DO	FA	FA	1.124
245.2	3.0	CS+	tools/chainsaw.jpg	Old	extinction	DO	H	H	0.755
252.3	3.0	CS-	animals/salmon.jpg	Old	extinction	DO	H	H	0.885
259.384	3.0	CS-	animals/hummingbird.jpg	Old	baseline	DO	H	H	0.893
266.48400000000004	3.0	CS-	animals/kangaroo.jpg	New	foil	DO	FA	FA	0.765
273.567	3.0	CS-	animals/anteater.jpg	Old	acquisition	DO	H	H	1.3030000000000002
280.66700000000003	3.0	CS-	animals/partridge.jpg	Old	acquisition	DN	M	M	1.495
287.75	3.0	CS+	tools/lawnmower.jpg	Old	acquisition	DO	H	H	1.209
295.85	3.0	CS+	tools/compass.jpg	New	foil	DN	CR	CR	1.808
303.95	3.0	CS+	tools/stove.jpg	Old	baseline	DO	H	H	1.379
312.034	3.0	CS+	tools/nailgun.jpg	New	foil	DO	FA	FA	1.604
320.117	3.0	CS-	animals/gecko.jpg	New	foil	DO	FA	FA	1.1059999999999999
328.217	3.0	CS-	animals/chipmunk.jpg	Old	acquisition	DN	M	M	1.524
336.31699999999995	3.0	CS-	animals/halibut.jpg	Old	extinction	DN	M	M	1.39
344.417	3.0	CS+	tools/woodchipper.jpg	Old	acquisition	DO	H	H	1.079
352.5	3.0	CS+	tools/duffelbag.jpg	Old	extinction	DO	H	H	1.301
360.56699999999995	3.0	CS-	animals/emu.jpg	New	foil	DO	FA	FA	1.075
368.667	3.0	CS-	animals/perch.jpg	Old	extinction	DO	H	H	1.45
376.75	3.0	CS+	tools/watch.jpg	New	foil	DO	FA	FA	1.3330000000000002
384.834	3.0	CS+	tools/vicegrips.jpg	New	foil	DO	FA	FA	1.139
392.934	3.0	CS-	animals/baboon.jpg	Old	baseline	DO	H	H	0.7609999999999999
401.017	3.0	CS-	animals/snapper.jpg	Old	baseline	DO	H	H	1.1440000000000001
409.1	3.0	CS-	animals/deer.jpg	New	foil	DN	CR	CR	1.479
417.167	3.0	CS-	animals/vulture.jpg	New	foil	DN	CR	CR	1.892
425.25	3.0	CS+	tools/blower.jpg	Old	extinction	DO	H	H	1.3130000000000002
433.31699999999995	3.0	CS+	tools/rake.jpg	Old	baseline	DO	H	H	0.8909999999999999
441.417	3.0	CS-	animals/seal.jpg	Old	acquisition	DO	H	H	0.84
449.517	3.0	CS-	animals/carp.jpg	Old	acquisition	DO	H	H	0.775
457.61699999999996	3.0	CS-	animals/turkey.jpg	Old	acquisition	DN	M	M	1.7480000000000002
465.684	3.0	CS+	tools/wrench.jpg	Old	acquisition	DO	H	H	1.1340000000000001
473.767	3.0	CS+	tools/weldinghelmet.jpg	Old	baseline	DO	H	H	0.7979999999999999
481.851	3.0	CS+	tools/crank.jpg	New	foil	DO	FA	FA	0.961
489.934	3.0	CS+	tools/routerplane.jpg	Old	acquisition	DO	H	H	0.884
498.017	3.0	CS-	animals/dockbug2.jpg	New	foil	DO	FA	FA	1.163
506.1	3.0	CS+	tools/squeegee.jpg	Old	extinction	DO	H	H	1.101
514.184	3.0	CS-	animals/toucan.jpg	New	foil	DO	FA	FA	0.742
522.284	3.0	CS-	animals/cow.jpg	Old	baseline	DO	H	H	0.9279999999999999
530.367	3.0	CS-	animals/cat.jpg	Old	extinction	DO	H	H	1.482
538.45	3.0	CS-	animals/lobsterspiny.jpg	New	foil	DO	FA	FA	2.097
546.533	3.0	CS+	tools/airpump.jpg	Old	extinction	DN	M	M	2.46
554.634	3.0	CS-	animals/waterbuffalo.jpg	Old	baseline	DO	H	H	1.0659999999999998
562.717	3.0	CS-	animals/canary.jpg	Old	extinction	DO	H	H	1.107
570.817	3.0	CS+	tools/clippers.jpg	New	foil	DN	CR	CR	1.756
578.9169999999999	3.0	CS+	tools/staplegun.jpg	New	foil	DO	FA	FA	1.28
587.001	3.0	CS+	tools/smartphone.jpg	New	foil	DO	FA	FA	1.7409999999999999
595.0840000000001	3.0	CS-	animals/penguin.jpg	New	foil	DO	FA	FA	0.948
603.1669999999999	3.0	CS+	tools/paintroller.jpg	Old	baseline	DO	H	H	0.904
