onset	duration	trial_type	stimulus	memory_condition	encode_phase	response	low_confidence_accuracy	high_confidence_accuracy	response_time
4.05	3.0	CS-	animals/assassinbug.jpg	Old	acquisition	MO	H	M	1.8630000000000002
11.183	3.0	CS-	animals/catfish.jpg	Old	acquisition	MN	M	M	2.33
19.317	3.0	CS-	animals/ladybug.jpg	New	foil	DN	CR	CR	2.339
27.467	3.0	CS+	tools/benchdogs.jpg	Old	acquisition	DO	H	H	2.006
34.617	3.0	CS+	tools/campingstove.jpg	Old	extinction	MO	H	M	1.995
41.75	3.0	CS+	tools/gong.jpg	Old	baseline	DO	H	H	2.362
48.9	3.0	CS+	tools/beaker.jpg	Old	acquisition	DO	H	H	1.561
57.05	3.0	CS-	animals/flea.jpg	Old	baseline	MO	H	M	1.4180000000000001
64.2	3.0	CS-	animals/octopus.jpg	New	foil	DN	CR	CR	1.3840000000000001
72.333	3.0	CS-	animals/hermitcrab.jpg	New	foil	DN	CR	CR	1.063
79.467	3.0	CS+	tools/bolt.jpg	New	foil	MO	FA	CR	1.482
86.6	3.0	CS+	tools/whistle.jpg	New	foil	DN	CR	CR	2.488
93.75	3.0	CS+	tools/engine.jpg	New	foil	DN	CR	CR	1.275
101.883	3.0	CS-	animals/zebra.jpg	Old	extinction	MO	H	M	1.65
109.01700000000001	3.0	CS-	animals/dragonfly.jpg	Old	baseline	DO	H	H	1.892
116.167	3.0	CS-	animals/tortoise.jpg	New	foil	MN	CR	CR	1.24
124.31700000000001	3.0	CS-	animals/aardvark.jpg	Old	extinction	MO	H	M	1.1340000000000001
132.45	3.0	CS+	tools/beadingtool.jpg	Old	baseline	MO	H	M	2.5639999999999996
139.6	3.0	CS+	tools/carpetblower.jpg	Old	extinction	MN	M	M	1.693
147.733	3.0	CS+	tools/burnisher.jpg	New	foil	MO	FA	CR	1.848
154.86700000000002	3.0	CS-	animals/skunk.jpg	Old	extinction	DO	H	H	1.296
163.0	3.0	CS+	tools/treadmill.jpg	Old	extinction	MO	H	M	2.259
171.15	3.0	CS-	animals/angelfish.jpg	Old	baseline	DO	H	H	1.7369999999999999
179.3	3.0	CS-	animals/woodlouse.jpg	New	foil	MN	CR	CR	2.0869999999999997
187.45	3.0	CS+	tools/magnet.jpg	New	foil	DN	CR	CR	1.197
195.6	3.0	CS+	tools/mellonballer.jpg	New	foil	DN	CR	CR	1.06
203.75	3.0	CS-	animals/palmcockatoo.jpg	Old	acquisition	MO	H	M	1.645
211.88299999999998	3.0	CS+	tools/lantern.jpg	New	foil	DN	CR	CR	1.571
219.033	3.0	CS-	animals/seaslug.jpg	New	foil	DN	CR	CR	0.9470000000000001
227.15	3.0	CS+	tools/extensioncord.jpg	Old	extinction	MN	M	M	2.01
234.266	3.0	CS+	tools/tubeflaring.jpg	Old	acquisition	MO	H	M	2.5180000000000002
241.4	3.0	CS-	animals/ant.jpg	Old	acquisition	MN	M	M	2.001
248.533	3.0	CS-	animals/flounder.jpg	New	foil	MO	FA	CR	1.669
256.666	3.0	CS+	tools/reflexhammer.jpg	Old	baseline	DO	H	H	1.295
264.8	3.0	CS+	tools/cheesegrater.jpg	Old	baseline	MN	M	M	2.202
272.933	3.0	CS-	animals/prayingmantis.jpg	Old	baseline	MN	M	M	1.6669999999999998
280.066	3.0	CS+	tools/sander.jpg	Old	acquisition	DO	H	H	1.704
288.2	3.0	CS-	animals/crane.jpg	New	foil	MN	CR	CR	1.6969999999999998
296.316	3.0	CS+	tools/microscope.jpg	New	foil	DN	CR	CR	1.055
303.466	3.0	CS-	animals/finch.jpg	Old	extinction	MN	M	M	1.495
311.6	3.0	CS-	animals/koala.jpg	New	foil	MN	CR	CR	2.966
318.733	3.0	CS+	tools/grapplinghook.jpg	New	foil	DN	CR	CR	1.7269999999999999
325.866	3.0	CS-	animals/snail.jpg	Old	acquisition	MO	H	M	1.6340000000000001
333.0	3.0	CS-	animals/reindeer.jpg	Old	extinction	MO	H	M	1.83
341.116	3.0	CS+	tools/mallet.jpg	Old	acquisition	DO	H	H	1.5230000000000001
348.26599999999996	3.0	CS-	animals/monkey.jpg	New	foil	DN	CR	CR	2.101
355.38300000000004	3.0	CS+	tools/caulkinggun.jpg	New	foil	MO	FA	CR	1.541
362.533	3.0	CS+	tools/electricdrill.jpg	New	foil	MN	CR	CR	1.9580000000000002
370.68300000000005	3.0	CS-	animals/pike.jpg	Old	baseline	MO	H	M	1.78
377.8	3.0	CS+	tools/padlock.jpg	Old	extinction	DO	H	H	1.227
385.93300000000005	3.0	CS+	tools/plunger.jpg	Old	baseline	DO	H	H	1.091
393.083	3.0	CS-	animals/llama.jpg	Old	extinction	MO	H	M	1.5119999999999998
400.216	3.0	CS+	tools/vegetablepeeler.jpg	Old	acquisition	DO	H	H	1.095
407.333	3.0	CS-	animals/panda.jpg	New	foil	DN	CR	CR	1.264
415.466	3.0	CS-	animals/baldeagle.jpg	Old	acquisition	MO	H	M	1.7790000000000001
423.583	3.0	CS-	animals/stickinsect.jpg	New	foil	DN	CR	CR	1.6580000000000001
431.733	3.0	CS+	tools/whisk.jpg	New	foil	MN	CR	CR	1.4280000000000002
438.866	3.0	CS-	animals/crow.jpg	Old	baseline	MN	M	M	2.4290000000000003
446.01599999999996	3.0	CS+	tools/bucket.jpg	Old	extinction	MO	H	M	1.568
454.15	3.0	CS+	tools/transmissionwrench.jpg	Old	baseline	MO	H	M	2.623
461.3	3.0	CS-	animals/ostrich.jpg	Old	baseline	MO	H	M	1.3019999999999998
469.45	3.0	CS-	animals/tiger.jpg	Old	baseline	MO	H	M	1.591
476.583	3.0	CS-	animals/duck.jpg	Old	acquisition	MN	M	M	1.4869999999999999
484.733	3.0	CS-	animals/shark.jpg	Old	acquisition	MN	M	M	2.5789999999999997
491.866	3.0	CS-	animals/rhino.jpg	Old	extinction	MO	H	M	2.065
499.0	3.0	CS-	animals/elephantafrican.jpg	Old	extinction	MN	M	M	1.699
506.13300000000004	3.0	CS+	tools/drillbit.jpg	Old	baseline	DO	H	H	0.998
514.266	3.0	CS+	tools/electricbreaker.jpg	Old	baseline	MO	H	M	2.21
522.4	3.0	CS+	tools/viceclamp.jpg	Old	acquisition	DO	H	H	1.2790000000000001
530.533	3.0	CS+	tools/pruner.jpg	Old	acquisition	DO	H	H	1.163
538.6659999999999	3.0	CS+	tools/paintbrush.jpg	Old	extinction	MO	H	M	2.136
545.783	3.0	CS+	tools/screwdriver.jpg	Old	extinction	DO	H	H	1.8630000000000002
553.9159999999999	3.0	CS-	animals/bullfrog.jpg	New	foil	MN	CR	CR	1.851
562.05	3.0	CS-	animals/waterdragon.jpg	New	foil	DN	CR	CR	2.009
569.2	3.0	CS-	animals/balloonfish.jpg	New	foil	DN	CR	CR	1.7930000000000001
577.3330000000001	3.0	CS-	animals/highlandcow.jpg	New	foil	MN	CR	CR	1.554
585.466	3.0	CS+	tools/keys.jpg	New	foil	MO	FA	CR	1.5330000000000001
592.6	3.0	CS+	tools/dremel.jpg	New	foil	MN	CR	CR	1.37
600.75	3.0	CS+	tools/wateringcan.jpg	New	foil	MN	CR	CR	1.274
607.9	3.0	CS+	tools/level.jpg	New	foil	DN	CR	CR	1.2919999999999998
