onset	duration	trial_type	stimulus	memory_condition	encode_phase	response	low_confidence_accuracy	high_confidence_accuracy	response_time
4.033	3.0	CS+	tools/caulkinggun.jpg	New	foil		CR	CR	
11.1	3.0	CS+	tools/monkeywrench.jpg	Old	baseline	DN	M	M	1.266
18.166	3.0	CS-	animals/caterpillarpeacockmoth.jpg	Old	acquisition	DO	H	H	1.672
25.25	3.0	CS-	animals/seaslug.jpg	New	foil	DN	CR	CR	1.262
33.316	3.0	CS+	tools/whistle.jpg	New	foil	DO	FA	FA	1.328
40.383	3.0	CS-	animals/mouse.jpg	Old	extinction	DO	H	H	2.167
48.45	3.0	CS+	tools/sparkplug.jpg	Old	extinction	DO	H	H	1.879
56.516000000000005	3.0	CS-	animals/hermitcrab.jpg	New	foil	DN	CR	CR	1.222
64.6	3.0	CS+	tools/measuringtape.jpg	Old	baseline	DO	H	H	2.2640000000000002
71.65	3.0	CS-	animals/flamingo.jpg	Old	baseline	DO	H	H	1.041
79.75	3.0	CS-	animals/panda.jpg	New	foil	DN	CR	CR	1.476
86.85	3.0	CS+	tools/gardenhose.jpg	Old	acquisition	DO	H	H	1.375
93.95	3.0	CS+	tools/grapplinghook.jpg	New	foil	DN	CR	CR	0.93
101.016	3.0	CS-	animals/giraffe.jpg	Old	acquisition	DO	H	H	2.0669999999999997
109.1	3.0	CS+	tools/plow.jpg	Old	acquisition	DO	H	H	2.3569999999999998
117.2	3.0	CS+	tools/wateringcan.jpg	New	foil	DO	FA	FA	1.777
125.266	3.0	CS-	animals/sheep.jpg	Old	extinction	DN	M	M	1.111
133.333	3.0	CS+	tools/ruler.jpg	Old	extinction	DO	H	H	1.831
140.4	3.0	CS-	animals/cricket.jpg	Old	baseline	DO	H	H	0.929
148.467	3.0	CS-	animals/tortoise.jpg	New	foil	DN	CR	CR	1.018
155.567	3.0	CS+	tools/scissors.jpg	Old	acquisition	DO	H	H	1.251
163.667	3.0	CS-	animals/woodlouse.jpg	New	foil	DN	CR	CR	1.5930000000000002
171.767	3.0	CS+	tools/fan.jpg	Old	extinction	DO	H	H	1.2990000000000002
179.833	3.0	CS+	tools/magnet.jpg	New	foil	DN	CR	CR	0.872
186.917	3.0	CS+	tools/measuringcups.jpg	Old	extinction	DN	M	M	1.244
194.983	3.0	CS-	animals/goldfish.jpg	Old	baseline		M	M	
202.067	3.0	CS-	animals/mole.jpg	Old	acquisition	DN	M	M	2.7439999999999998
210.13299999999998	3.0	CS-	animals/horse.jpg	Old	baseline	DN	M	M	1.89
218.2	3.0	CS+	tools/dremel.jpg	New	foil	DO	FA	FA	2.2030000000000003
225.267	3.0	CS+	tools/ladder.jpg	Old	acquisition	DO	H	H	1.743
233.36700000000002	3.0	CS-	animals/highlandcow.jpg	New	foil	DO	FA	FA	2.439
240.45	3.0	CS+	tools/microscope.jpg	New	foil	DN	CR	CR	1.2329999999999999
248.5	3.0	CS-	animals/pigeon.jpg	Old	acquisition	DO	H	H	1.57
255.583	3.0	CS-	animals/camel.jpg	Old	extinction	DN	M	M	2.155
262.66700000000003	3.0	CS+	tools/jumpercables.jpg	Old	baseline	DN	M	M	1.79
269.767	3.0	CS+	tools/mellonballer.jpg	New	foil	DN	CR	CR	0.9840000000000001
277.817	3.0	CS-	animals/stickinsect.jpg	New	foil	DO	FA	FA	2.092
284.91700000000003	3.0	CS+	tools/microwave.jpg	Old	baseline	DN	M	M	1.8
292.967	3.0	CS-	animals/mink.jpg	Old	extinction	DN	M	M	1.676
300.05	3.0	CS-	animals/bullfrog.jpg	New	foil	DN	CR	CR	2.072
307.133	3.0	CS-	animals/shrimp.jpg	Old	baseline	DO	H	H	1.608
314.217	3.0	CS+	tools/burnisher.jpg	New	foil	DN	CR	CR	1.237
321.3	3.0	CS+	tools/rollingpin.jpg	Old	acquisition	DO	H	H	1.073
328.38300000000004	3.0	CS+	tools/camera.jpg	Old	baseline	DN	M	M	1.6540000000000001
336.467	3.0	CS+	tools/levelmount.jpg	Old	extinction	DO	H	H	2.577
344.55	3.0	CS+	tools/engine.jpg	New	foil	DN	CR	CR	0.9
352.63300000000004	3.0	CS-	animals/flounder.jpg	New	foil	DN	CR	CR	1.446
359.7	3.0	CS-	animals/dramaderry.jpg	Old	extinction	DO	H	H	1.177
367.783	3.0	CS-	animals/herring.jpg	Old	extinction	DO	H	H	1.396
375.85	3.0	CS-	animals/waterdragon.jpg	New	foil	DN	CR	CR	1.014
383.93300000000005	3.0	CS+	tools/workbench.jpg	Old	baseline	DO	H	H	1.443
391.017	3.0	CS+	tools/hairdryer.jpg	Old	acquisition	DO	H	H	1.825
398.1	3.0	CS-	animals/ladybug.jpg	New	foil	DN	CR	CR	1.3359999999999999
406.184	3.0	CS+	tools/blackboard.jpg	Old	extinction	DN	M	M	1.1540000000000001
414.284	3.0	CS-	animals/octopus.jpg	New	foil	DN	CR	CR	1.037
421.384	3.0	CS+	tools/level.jpg	New	foil	DN	CR	CR	1.0859999999999999
429.48400000000004	3.0	CS+	tools/electricdrill.jpg	New	foil	DO	FA	FA	1.646
437.55	3.0	CS-	animals/pelican.jpg	Old	acquisition	DO	H	H	1.046
444.634	3.0	CS-	animals/caterpillarhawkmoth.jpg	Old	baseline	DO	H	H	1.054
451.717	3.0	CS-	animals/porcupine.jpg	Old	acquisition	DO	H	H	0.986
458.784	3.0	CS+	tools/edger.jpg	Old	baseline	DN	M	M	2.2319999999999998
466.85	3.0	CS+	tools/ropeandpulley.jpg	Old	acquisition	DO	H	H	2.1919999999999997
474.934	3.0	CS+	tools/lantern.jpg	New	foil	DN	CR	CR	1.501
482.017	3.0	CS+	tools/whisk.jpg	New	foil	DN	CR	CR	1.102
490.1	3.0	CS-	animals/crane.jpg	New	foil	DN	CR	CR	2.025
497.184	3.0	CS-	animals/firebug.jpg	Old	extinction	DO	H	H	1.383
504.25	3.0	CS+	tools/bolt.jpg	New	foil	DO	FA	FA	1.849
511.31699999999995	3.0	CS+	tools/broom.jpg	Old	extinction	DO	H	H	1.04
518.4	3.0	CS+	tools/faxmachine.jpg	Old	acquisition	DO	H	H	2.164
526.467	3.0	CS+	tools/solderingtorch.jpg	Old	baseline	DO	H	H	1.1320000000000001
534.5509999999999	3.0	CS-	animals/koala.jpg	New	foil	DO	FA	FA	0.9440000000000001
541.617	3.0	CS-	animals/monkey.jpg	New	foil	DN	CR	CR	1.26
549.701	3.0	CS-	animals/boar.jpg	Old	acquisition	DO	H	H	1.525
557.8009999999999	3.0	CS-	animals/gerbil.jpg	Old	acquisition	DO	H	H	0.9570000000000001
564.884	3.0	CS-	animals/mahimahi.jpg	Old	extinction	DO	H	H	2.248
572.951	3.0	CS+	tools/keys.jpg	New	foil	DO	FA	FA	2.114
580.0169999999999	3.0	CS-	animals/hyena.jpg	Old	baseline	MO	H	M	1.956
588.101	3.0	CS+	tools/thermometer.jpg	Old	extinction	DO	H	H	2.1519999999999997
595.201	3.0	CS-	animals/marmot.jpg	Old	baseline	MO	H	M	2.748
603.2669999999999	3.0	CS-	animals/balloonfish.jpg	New	foil	DN	CR	CR	1.224
